G3;--------------------------------------------------
gG3;SDTM DS DOMAIN CREATION STARTED: 2026-02-09
gG3;--------------------------------------------------
gG3;Raw DS record count: 850
gG3;Raw DS variables:
g [1] "oak_id"         "raw_source"     "patient_number" "STUDY"          "PATNUM"        
 [6] "SITENM"         "INSTANCE"       "FORM"           "FORML"          "IT.DSTERM"     
[11] "IT.DSDECOD"     "OTHERSP"        "DSDTCOL"        "DSTMCOL"        "IT.DSSTDAT"    
[16] "DEATHDT"       
G3;Controlled terminology terms available for DS:
g [1] "ADVERSE EVENT"               "COMPLETE"                    "DEAD"                       
 [4] "LACK OF EFFICACY"            "LOST TO FOLLOW-UP"           "PHYSICIAN DECISION"         
 [7] "PROTOCOL VIOLATION"          "TRIAL SCREEN FAILURE"        "STUDY TERMINATED BY SPONSOR"
[10] "WITHDRAWAL BY SUBJECT"      
G3;ℹ These terms could not be mapped per the controlled terminology: "RANDOMIZED".
gG3;CT mapping coverage check:
g  IT.DSDECOD_CLN %in% ds_ct$collected_value   n
1                                     FALSE 709
2                                      TRUE 141
G3;Preview of final DS dataset:
g        STUDYID DOMAIN               USUBJID DSSEQ                DSTERM               DSDECOD
1  CDISCPILOT01     DS CDISCPILOT01-701-1015     1            Randomized            RANDOMIZED
2  CDISCPILOT01     DS CDISCPILOT01-701-1015     2    Protocol Completed             COMPLETED
3  CDISCPILOT01     DS CDISCPILOT01-701-1015     3       Final Lab Visit       Final Lab Visit
4  CDISCPILOT01     DS CDISCPILOT01-701-1023     1            Randomized            RANDOMIZED
5  CDISCPILOT01     DS CDISCPILOT01-701-1023     2         Adverse Event         ADVERSE EVENT
6  CDISCPILOT01     DS CDISCPILOT01-701-1023     3       Final Lab Visit       Final Lab Visit
7  CDISCPILOT01     DS CDISCPILOT01-701-1023     4 Final Retrieval Visit Final Retrieval Visit
8  CDISCPILOT01     DS CDISCPILOT01-701-1028     1            Randomized            RANDOMIZED
9  CDISCPILOT01     DS CDISCPILOT01-701-1028     2    Protocol Completed             COMPLETED
10 CDISCPILOT01     DS CDISCPILOT01-701-1028     3       Final Lab Visit       Final Lab Visit
                DSCAT VISITNUM     VISIT            DSDTC    DSSTDTC DSSTDY
1  PROTOCOL MILESTONE       10  Baseline       2014-02-01 2014-02-01     NA
2   DISPOSITION EVENT      260   Week 26       2014-02-07 2014-02-07     NA
3         OTHER EVENT      260   Week 26 2014-02-07T11:45 2014-02-07     NA
4  PROTOCOL MILESTONE       10  Baseline       2012-05-08 2012-05-08     NA
5   DISPOSITION EVENT       40    Week 4       2012-02-09 2012-02-09     NA
6         OTHER EVENT       40    Week 4 2012-02-09T10:15 2012-02-09     NA
7         OTHER EVENT       NA Retrieval       2013-18-02 2013-18-02     NA
8  PROTOCOL MILESTONE       10  Baseline       2013-19-07 2013-19-07     NA
9   DISPOSITION EVENT      260   Week 26       2014-14-01 2014-14-01     NA
10        OTHER EVENT      260   Week 26 2014-14-01T11:10 2014-14-01     NA
G3;--------------------------------------------------
gG3;SDTM DS DOMAIN CREATION COMPLETED
gG3;--------------------------------------------------
g